Folder: ThermoLearn/Standard/data

Note: Standard/data/feature_rank1_energy_nist.txt
nsites
avg_Period
avg_crystal radius
avg_ Atomic_Weight
avg_specific heat (J/g K) 
avg_Density (g/mL)
avg_ Atomic_Number
min_crystal radius
avg_ Covalent_Radius
avg_ionic radius
avg_electron affinity (kJ/mol)
avg_Atomic Radus
min_specific heat (J/g K) 
avg_valence d
avg_number of valence electrons
diff_Mendeleev Number
max_valence d
diff_electron affinity (kJ/mol)
max_ Atomic_Number
avg_1st ionization potential (kJ/mol)
min_ Atomic_Weight
avg_heat atomization (kJ/mol)
max_Zunger radii sum
avg_Zunger radii sum
min_ Atomic_Number
diff_Gordy electonegativity
diff_heat of fusion (kJ/mol) 
max_Density (g/mL)
diff_Allred-Rockow electronegativity
diff_ Atomic_Weight
diff_ Covalent_Radius
max_specific heat (J/g K) 
diff_ionic radius
diff_specific heat (J/g K) 
diff_ Atomic_Number
avg_Mullinke EN
avg_metallic valence
min_heat of fusion (kJ/mol) 
avg_heat of vaporization (kJ/mol) 
avg_Gordy electonegativity
avg_polarizability(A^3)
avg_Mendeleev Number
avg_Allred-Rockow electronegativity
max_ Atomic_Weight
avg_Melting point (K)
min_Zunger radii sum
avg_MB electonegativity
diff_heat of vaporization (kJ/mol) 
avg_Cohesive energy
diff_Zunger radii sum
avg_heat of fusion (kJ/mol) 
diff_Atomic Radus
avg_outer shell electrons
min_electron affinity (kJ/mol)
avg_thermal conductivity (W/(m K)) 
avg_valence p
avg_gilmor number of valence electron
diff_Cohesive energy
min_ionic radius
min_Period
max_ Covalent_Radius
max_polarizability(A^3)
diff_group
diff_heat atomization (kJ/mol)
diff_valence d
diff_Mullinke EN
min_ Covalent_Radius
diff_Melting point (K)
min_MB electonegativity
avg_Boiling Point (K)
avg_group
min_Gordy electonegativity
avg_ Pauling_Electronegativity
min_Boiling Point (K)
diff_1st ionization potential (kJ/mol)
diff_polarizability(A^3)
diff_crystal radius
diff_valence p
diff_ Pauling_Electronegativity
min_Density (g/mL)
min_Atomic Radus
min_1st ionization potential (kJ/mol)
max_Allred-Rockow electronegativity
max_crystal radius
min_heat atomization (kJ/mol)
diff_thermal conductivity (W/(m K)) 
min_Mullinke EN
diff_Density (g/mL)
min_gilmor number of valence electron
avg_valence s
max_heat of vaporization (kJ/mol) 
max_Mullinke EN
diff_MB electonegativity
diff_outer shell electrons
min_polarizability(A^3)
min_ Pauling_Electronegativity
diff_metallic valence
diff_gilmor number of valence electron
max_ Pauling_Electronegativity
min_heat of vaporization (kJ/mol) 
avg_families
max_Cohesive energy
max_ionic radius
max_Period
min_Cohesive energy
min_thermal conductivity (W/(m K)) 
max_heat atomization (kJ/mol)
max_valence p
diff_number of valence electrons
diff_Period
min_group
min_Mendeleev Number
max_MB electonegativity
max_Boiling Point (K)
max_Mendeleev Number
max_Atomic Radus
diff_Boiling Point (K)
min_number of valence electrons
min_Melting point (K)
max_electron affinity (kJ/mol)
max_Melting point (K)
min_valence s
min_Allred-Rockow electronegativity
max_Gordy electonegativity
max_thermal conductivity (W/(m K)) 
diff_families
max_heat of fusion (kJ/mol

Note: Standard/data/feature_rank1_energy_oxides.txt
nsites
density_atomic
volume
avg_Period
outer_density
avg_crystal radius
avg_Zunger radii sum
B_lat
mean_bond
C_lat
avg_ionic radius
avg_Atomic Radus
reduced_electron_density
avg_ Atomic_Weight
min_bond
max_bond
avg_ Covalent_Radius
avg_1st ionization potential (kJ/mol)
formation_energy_per_atom
reduced_gilman_density
avg_Density (g/mL)
A_lat
energy_per_atom
band_gap
reduced_outer_density
avg_valence d
avg_specific heat (J/g K) 
varience_bond
avg_ Atomic_Number
avg_thermal conductivity (W/(m K)) 
avg_Mullinke EN
avg_Mendeleev Number
avg_polarizability(A^3)
avg_Allred-Rockow electronegativity
avg_Boiling Point (K)
avg_heat of fusion (kJ/mol) 
density
avg_heat atomization (kJ/mol)
diff_gilmor number of valence electron
diff_crystal radius
avg_number of valence electrons
diff_Mendeleev Number
reduced_valence_density
diff_specific heat (J/g K) 
diff_number of valence electrons
avg_gilmor number of valence electron
max_Melting point (K)
avg_heat of vaporization (kJ/mol) 
diff_ Pauling_Electronegativity
electron_density
valence_density
spc_grp
min_Mullinke EN
min_electron affinity (kJ/mol)
min_MB electonegativity
avg_Cohesive energy
min_heat atomization (kJ/mol)
avg_metallic valence
alpha
total_magnetization
diff_polarizability(A^3)
avg_group
gilman_density
diff_Melting point (K)
avg_families
avg_electron affinity (kJ/mol)
min_crystal radius
diff_Density (g/mL)
diff_ Atomic_Number
avg_Melting point (K)
max_heat of fusion (kJ/mol) 
avg_valence p
diff_MB electonegativity
energy_above_hull
total_magnetization_normalized_vol
min_Allred-Rockow electronegativity
diff_heat atomization (kJ/mol)
diff_thermal conductivity (W/(m K)) 
max_ Atomic_Number
avg_ Pauling_Electronegativity
avg_MB electonegativity
diff_valence d
diff_Zunger radii sum
avg_outer shell electrons
diff_Cohesive energy
diff_Gordy electonegativity
min_Cohesive energy
min_ Atomic_Number
avg_Gordy electonegativity
diff_ Covalent_Radius
gamma
max_valence d
max_Density (g/mL)
max_1st ionization potential (kJ/mol)
max_Gordy electonegativity
diff_ Atomic_Weight
min_ Pauling_Electronegativity
min_Mendeleev Number
max_Zunger radii sum
max_Allred-Rockow electronegativity
min_ Atomic_Weight
diff_Atomic Radus
diff_electron affinity (kJ/mol)
crys_sys
max_thermal conductivity (W/(m K)) 
min_number of valence electrons
min_heat of vaporization (kJ/mol) 
beta
max_Cohesive energy
diff_Allred-Rockow electronegativity
max_specific heat (J/g K) 
max_ Covalent_Radius
max_heat atomization (kJ/mol)
diff_1st ionization potential (kJ/mol)
avg_valence s
max_ionic radius
diff_ionic radius
diff_Boiling Point (K)
diff_group
min_Boiling Point (K)
diff_heat of fusion (kJ/mol) 
min_Gordy electonegativity
diff_Mullinke EN
max_ Pauling_Electronegativity
max_number of valence electrons
max_heat of vaporization (kJ/mol) 
min_1st ionization potential (kJ/mol)
diff_Period
min_specific heat (J/g K) 
diff_heat of vaporization (kJ/mol) 
max_Period
diff_families
diff_metallic valence
max_ Atomic_Weight
max_MB electonegativity
min_Melt

Note: README.md
# ThermoLearn
## Need to organize the code and add OOD section ... Standard section contains the codes and data for JANAF and PhononDb datasets

File: total_nist.csv
,Unnamed: 0,composition,mat_id,F_kJ/mol,S _J/K/mol,e_kJ/mol,avg_ Atomic_Number,avg_ Atomic_Weight,avg_Period,avg_group,avg_families,avg_Mendeleev Number,avg_Atomic Radus,avg_ Covalent_Radius,avg_Zunger radii sum,avg_ionic radius,avg_crystal radius,avg_ Pauling_Electronegativity,avg_MB electonegativity,avg_Gordy electonegativity,avg_Mullinke EN,avg_Allred-Rockow electronegativity,avg_metallic valence,avg_number of valence electrons,avg_gilmor number of valence electron,avg_valence s,avg_valence p,avg_valence d,avg_outer shell electrons,avg_1st ionization potential (kJ/mol),avg_polarizability(A^3),avg_Melting point (K),avg_Boiling Point (K),avg_Density (g/mL),avg_specific heat (J/g K) ,avg_heat of fusion (kJ/mol) ,avg_heat of vaporization (kJ/mol) ,avg_thermal conductivity (W/(m K)) ,avg_heat atomization (kJ/mol),avg_Cohesive energy,avg_electron affinity (kJ/mol),diff_ Atomic_Number,diff_ Atomic_Weight,diff_Period,diff_group,diff_families,diff_Mendeleev Number,diff_Atomic Radus,diff_ Covalent_Radius,diff_Zunger radii sum,diff_ionic radius,diff_crystal radius,diff_ Pauling_Electronegativity,diff_MB electonegativity,diff_Gordy electonegativity,diff_Mullinke EN,diff_Allred-Rockow electronegativity,diff_metallic valence,diff_number of valence electrons,diff_gilmor number of valence electron,diff_valence s,diff_valence p,diff_valence d,diff_outer shell electrons,diff_1st ionization potential (kJ/mol),diff_polarizability(A^3),diff_Melting point (K),diff_Boiling Point (K),diff_Density (g/mL),diff_specific heat (J/g K) ,diff_heat of fusion (kJ/mol) ,diff_heat of vaporization (kJ/mol) ,diff_thermal conductivity (W/(m K)) ,diff_heat atomization (kJ/mol),diff_Cohesive energy,diff_electron affinity (kJ/mol),max_ Atomic_Number,max_ Atomic_Weight,max_Period,max_group,max_families,max_Mendeleev Number,max_Atomic Radus,max_ Covalent_Radius,max_Zunger radii sum,max_ionic radius,max_crystal radius,max_ Pauling_Electronegativity,max_MB electonegativity,max_Gordy electonegativity,max_Mullinke EN,max_Allred-Rockow electronegativity,max_metallic valence,max_number of valence electrons,max_gilmor number of valence electron,max_valence s,max_valence p,max_valence d,max_outer shell electrons,max_1st ionization potential (kJ/mol),max_polarizability(A^3),max_Melting point (K),max_Boiling Point (K),max_Density (g/mL),max_specific heat (J/g K) ,max_heat of fusion (kJ/mol) ,max_heat of vaporization (kJ/mol) ,max_thermal conductivity (W/(m K)) ,max_heat atomization (kJ/mol),max_Cohesive energy,max_electron affinity (kJ/mol),min_ Atomic_Number,min_ Atomic_Weight,min_Period,min_group,min_families,min_Mendeleev Number,min_Atomic Radus,min_ Covalent_Radius,min_Zunger radii sum,min_ionic radius,min_crystal radius,min_ Pauling_Electronegativity,min_MB electonegativity,min_Gordy electonegativity,min_Mullinke EN,min_Allred-Rockow electronegativity,min_metallic valence,min_number of valence electrons,min_gilmor number of valence electron,min_valence s,min_valence p,min_valence d,min_outer shell electrons,min_1st ionization potential (kJ/mol),min_polarizability(A^3),min_Melting point (K),min_Boiling Point (K),min_Density (g/mL),min_specific heat (J/g K) ,min_heat of fusion (kJ/mol) ,min_heat of vaporization (kJ/mol) ,min_thermal conductivity (W/(m K)) ,min_heat atomization (kJ/mol),min_Cohesive energy,min_electron affinity (kJ/mol),nsites
0,0,Al,g,-213.6528,193.775,18.877,13.0,26.9815,3.0,13.0,5.0,73.0,1.25,1.18,1.675,1.25,0.53,1.61,1.64,3.5237,3.23,1.613,3.0,3.0,3.0,2.0,1.0,0.0,3.0,578.0,8.3,933.15,2740.15,2.7,0.9,10.79,293.4,237.0,326.0,3.39,41.762,0,0.0,0,0,0,0,0.0,0.0,0.0,0.0,0.0,0.0,0.0,0.0,0.0,0.0,0.0,0,0,0,0,0,0,0,0.0,0.0,0.0,0.0,0.0,0.0,0.0,0.0,0,0.0,0.0,13,26.9815,3,13,5,73,1.25,1.18,1.675,1.25,0.53,1.61,1.64,3.5237,3.23,1.613,3.0,3,3,2,1,0,3,578,8.3,933.15,2740.15,2.7,0.9,10.79,293.4,237.0,326,3.39,41.762,13,26.9815,3,13,5,73,1.25,1.18,1.675,1.25,0.53,1.61,1.64,3.5237,3.23,1.613,3.0,3,3,2,1,0,3,578,8.3,933.15,2740.15,2.7,0.9,10.79,293.4,237.0,326,3.39,41.762,1
51,51,BClO,g,-324.0816,310.881,48.976,10.0,20.7544,2.33333,15.3333,7.0,84.3333,0.816667,0.846667,0.756667,0.816667,1.04333,2.88,2.73333,6.60333,6.71,2.84333,1.0,5.33333,5.33333,2.0,3.33333,0.0,5.33333,1122.0,1.99767,859.683,1050.62,0.781547,0.806667,17.8842,167.77,9.01188,314.333,3.27667,172.18,12,24.6417,1,4,2,22,0.4,0.26,0.545,0.4,1.42,1.4,1.42,3.7752,4.01,1.559,3.0,4,4,0,4,0,4,513,2.207,2297.4,2733.0,2.33857,0.54,49.97741,486.2901,26.9911,452,4.41,321.586,17,35.4527,3,17,8,94,1.0,0.99,1.01,1.0,1.67,3.44,3.32,8.3703,8.3,3.61,3.0,7,7,2,5,0,7,1314,3.0,2352.15,2823.15,2.34,1.02,50.2,489.7,27.0,573,5.81,348.575,5,10.811,2,13,6,72,0.6,0.73,0.465,0.6,0.25,2.04,1.9,4.5951,4.29,2.051,0.0,3,3,2,1,0,3,801,0.793,54.75,90.15,0.00143,0.48,0.22259,3.4099,0.0089,121,1.4,26.989,3
103,103,BaF,g,-323.3772,297.235,33.305,32.5,78.1627,4.0,9.5,5.0,51.0,1.325,1.35,1.9035,1.325,1.34,2.435,2.43,7.27765,6.405,2.537,1.0,4.5,4.5,2.0,2.5,0.0,4.5,1092.0,20.167,525.75,999.1,1.75085,0.512,4.0026,72.6349,9.21395,129.5,1.37,171.059,47,118.329,4,15,6,84,1.65,1.26,2.997,1.65,0.3,3.09,2.7,5.6155,8.01,3.312,2.0,5,5,0,5,0,5,1178,39.066,944.8,1828.1,3.4983,0.616,7.4948,138.7302,18.3721,101,1.06,314.2109,56,137.327,6,17,8,93,2.15,1.98,3.402,2.15,1.49,3.98,3.78,10.0854,10.41,4.193,2.0,7,7,2,5,0,7,1681,39.7,998.15,1913.15,3.5,0.82,7.75,142.0,18.4,180,1.9,328.1649,9,18.9984,2,2,2,9,0.5,0.72,0.405,0.5,1.19,0.89,1.08,4.4699,2.4,0.881,0.0,2,2,2,0,0,2,503,0.634,53.35,85.05,0.0017,0.204,0.2552,3.2698,0.0279,79,0.84,13.954,2
156,156,BrNO,g,-366.1104,343.947,46.626,16.6667,36.6367,2.66667,16.0,7.33333,88.0,0.8,0.873333,0.735,0.8,1.11,3.14667,3.0,7.22053,7.47667,3.12033,1.0,6.0,6.0,2.0,4.0,0.0,6.0,1285.33,1.66433,127.983,166.483,1.04089,0.811,1.95633,7.21357,0.05824,278.0,2.92,155.148,28,65.89726,2,2,1,13,0.55,0.41,0.735,0.55,1.52,0.48,0.49,1.9624,0.29,0.925,3.0,2,2,0,2,0,2,262,2.307,211.2,254.6,3.11875,0.567,5.06341,12.6452,0.09602,361,3.7,324.607,35,79.904,4,17,8,95,1.15,1.14,1.2,1.15,1.82,3.44,3.32,8.3703,7.59,3.61,3.0,7,7,2,5,0,7,1402,3.1,265.95,331.95,3.12,1.04,5.286,15.438,0.122,473,4.92,324.537,7,14.00674,2,15,7,82,0.6,0.73,0.465,0.6,0.3,2.96,2.83,6.4079,7.3,2.685,0.0,5,5,2,3,0,5,1140,0.793,54.75,77.35,0.00125,0.473,0.22259,2.7928,0.02598,112,1.22,-0.07,3
215,215,CClF3,g,-406.7388,408.295,83.215,10.0,20.8918,2.2,16.4,7.8,90.0,0.64,0.784,0.573,0.64,1.106,3.53,3.338,8.54508,9.16,3.5984,0.8,6.4,6.4,2.0,4.4,0.0,6.4,1476.0,1.1804,794.47,1118.77,0.704262,0.692,24.79912,75.16188,4.01852,215.0,2.258,290.9692,11,23.4417,1,3,1,17,0.5,0.27,0.605,0.5,1.38,1.43,1.41,4.4608,4.14,1.649,4.0,3,3,0,3,0,3,595,1.566,3586.8,5015.1,3.5113,0.34,119.7448,352.5302,19.9911,638,6.53,226.7987,17,35.4527,3,17,8,94,1.0,0.99,1.01,1.0,1.67,3.98,3.78,10.0854,10.41,4.193,4.0,7,7,2,5,0,7,1681,2.2,3640.15,5100.15,3.513,0.82,120.0,355.8,20.0,717,7.37,348.575,6,12.011,2,14,7,77,0.5,0.72,0.405,0.5,0.29,2.55,2.37,5.6246,6.27,2.544,0.0,4,4,2,2,0,4,1086,0.634,53.35,85.05,0.0017,0.48,0.2552,3.2698,0.0089,79,0.84,121.7763,5
266,266,CS,g,-277.4232,256.642,30.547,11.0,22.0385,2.5,15.0,7.0,82.5,0.85,0.895,0.87,0.85,0.36,2.565,2.51,5.7352,6.245,2.5665,3.0,5.0,5.0,2.0,3.0,0.0,5.0,1043.0,2.35,2013.05,2909.0,2.7915,0.615,60.85875,182.8,10.1345,498.0,5.11,161.0932,10,20.055,1,2,0,11,0.3,0.25,0.46,0.3,0.14,0.03,0.28,0.2212,0.05,0.045,2.0,2,2,0,2,0,2,86,1.1,3254.2,4382.3,1.443,0.19,118.2825,346.0,19.731,438,4.52,78.6338,16,32.066,3,16,7,88,1.0,1.02,1.1,1.0,0.43,2.58,2.65,5.8458,6.27,2.589,4.0,6,6,2,4,0,6,1086,2.9,3640.15,5100.15,3.513,0.71,120.0,355.8,20.0,717,7.37,200.4101,6,12.011,2,14,7,77,0.7,0.77,0.64,0.7,0.29,2.55,2.37,5.6246,6.22,2.544,2.0,4,4,2,2,0,4,1000,1.8,385.95,717.85,2.07,0.52,1.7175,9.8,0.269,279,2.85,121.7763,2
317,317,ClFO3,g,-398.0592,400.328,82.335,10.0,20.4899,2.2,16.4,7.4,89.6,0.66,0.78,0.562,0.66,1.298,3.492,3.344,8.40818,8.266,3.5784,0.0,6.4,6.4,2.0,4.4,0.0,6.4,1374.8,1.0426,77.95,118.81,0.00184,0.812,0.830594,4.7399,0.023404,189.4,2.02,219.934,9,19.4533,1,1,1,7,0.5,0.27,0.605,0.5,0.48,0.82,0.8,3.2408,2.87,1.324,0.0,1,1,0,1,0,1,430,1.566,118.8,153.5,0.00178,0.44,3.00741,6.9302,0.019,170,1.78,207.599,17,35.4527,3,17,8,94,1.0,0.99,1.01,1.0,1.67,3.98,3.78,10.0854,10.41,4.193,0.0,7,7,2,5,0,7,1681,2.2,172.15,238.55,0.00321,0.92,3.23,10.2,0.0279,249,2.62,348.575,8,15.9994,2,16,7,87,0.5,0.72,0.405,0.5,1.19,3.16,2.98,6.8446,7.54,2.869,0.0,6,6,2,4,0,6,1251,0.634,53.35,85.05,0.00143,0.48,0.22259,3.2698,0.0089,79,0.84,140.976,5
368,368,Cl2Si,g,-379.752,358.701,50.689,16.0,32.997,3.0,16.0,7.33333,88.6667,1.03333,1.03,1.14667,1.03333,1.24667,2.74,2.64667,5.95813,7.12333,2.55133,1.33333,6.0,6.0,2.0,4.0,0.0,6.0,1096.33,3.26667,675.817,1035.08,0.778807,0.556667,19.0033,134.873,49.3393,231.333,2.47667,277.0728,3,7.3672,0,3,2,16,0.1,0.12,0.41,0.1,1.27,1.26,1.0,2.6594,3.53,0.953,4.0,3,3,0,3,0,3,464,3.2,1511.0,2389.6,2.32679,0.23,47.32,374.02,147.9911,331,3.23,214.5066,17,35.4527,3,17,8,94,1.1,1.11,1.42,1.1,1.67,3.16,2.98,6.8446,8.3,2.869,4.0,7,7,2,5,0,7,1251,5.4,1683.15,2628.15,2.33,0.71,50.55,384.22,148.0,452,4.63,348.575,14,28.0855,3,14,6,78,1.0,0.99,1.01,1.0,0.4,1.9,1.98,4.1852,4.77,1.916,0.0,4,4,2,2,0,4,787,2.2,172.15,238.55,0.00321,0.48,3.23,10.2,0.0089,121,1.4,134.0684,3
419,419,Cs2O4S,g,-587.8776,595.282,126.46,22.5714,51.6964,3.28571,11.7143,5.28571,63.7143,1.22857,1.23429,1.65429,1.22857,1.27,2.56,2.49571,6.8846,5.82,2.621,0.571429,4.57143,4.57143,1.71429,2.85714,0.0,4.57143,1001.14,17.896,172.579,423.25,0.830817,0.695714,0.970266,22.7028,16.9109,204.714,2.134,122.189,47,116.906,4,15,6,83,2.0,1.62,3.845,2.0,1.38,2.65,2.55,3.9377,5.36,2.951,2.0,5,5,1,4,0,5,938,58.807,331.2,852.0,2.06857,0.68,1.86941,64.3301,58.97326,200,2.046,154.9051,55,132.905,6,16,7,88,2.6,2.35,4.31,2.6,1.81,3.44,3.32,8.3703,7.54,3.61,2.0,6,6,2,4,0,6,1314,59.6,385.95,942.15,2.07,0.92,2.092,67.74,59.0,279,2.85,200.4101,8,15.9994,2,1,1,5,0.6,0.73,0.465,0.6,0.43,0.79,0.77,4.4326,2.18,0.659,0.0,1,1,1,0,0,1,376,0.793,54.75,90.15,0.00143,0.24,0.22259,3.4099,0.02674,79,0.804,45.505,7
470,470,F2N2,g,-364.8084,357.103,63.715,8.0,16.5026,2.0,16.0,7.5,87.5,0.575,0.735,0.4725,0.575,0.745,3.51,3.315,8.4844,8.855,3.6295,1.5,6.0,6.0,2.0,4.0,0.0,6.0,1541.5,0.867,58.3,81.2,0.001475,0.93,0.3078,3.0313,0.02694,276.0,2.88,164.047,2,4.991663,0,2,1,11,0.15,0.03,0.135,0.15,0.89,0.94,0.93,3.202,3.11,1.127,3.0,2,2,0,2,0,2,279,0.466,9.9,7.7,0.00045,0.22,0.1052,0.477,0.00192,394,4.08,328.2349,9,18.9984,2,17,8,93,0.65,0.75,0.54,0.65,1.19,3.98,3.78,10.0854,10.41,4.193,3.0,7,7,2,5,0,7,1681,1.1,63.25,85.05,0.0017,1.04,0.3604,3.2698,0.0279,473,4.92,328.1649,7,14.00674,2,15,7,82,0.5,0.72,0.405,0.5,0.3,3.04,2.85,6.8834,7.3,3.066,0.0,5,5,2,3,0,5,1402,0.634,53.35,77.35,0.00125,0.82,0.2552,2.7928,0.02598,79,0.84,-0.07,4
521,521,H2FeO2,g,-405.0648,406.439,82.661,8.8,17.9723,2.0,8.4,6.4,82.6,0.62,0.674,1.108,0.62,0.662,2.622,2.502,6.90328,6.7,2.724,1.156,4.4,3.8,1.6,1.6,1.2,3.2,1202.8,2.2772,389.15,648.79,1.5726,6.1776,2.872508,71.4637,16.1233,270.4,1.904,88.455,25,54.83906,3,15,3,37,1.15,0.8,1.645,1.15,1.11,1.61,1.65,4.9513,3.48,1.81,5.78,7,5,1,4,6,5,552,7.7,1794.1,3002.9,7.85993,13.864,13.74132,349.151,80.17326,200,4.28,126.191,26,55.847,4,16,7,92,1.4,1.17,2.11,1.4,1.21,3.44,3.32,8.3703,7.54,3.61,5.78,8,6,2,4,6,6,1314,8.4,1808.15,3023.15,7.86,14.304,13.8,349.6,80.2,418,4.28,140.976,1,1.00794,1,1,4,55,0.25,0.37,0.465,0.25,0.1,1.83,1.67,3.419,4.06,1.8,0.0,1,1,1,0,0,1,762,0.7,14.05,20.25,6.99e-05,0.44,0.05868,0.44936,0.02674,218,0.0,14.785,5
572,572,Hf,g,-241.1424,218.761,21.371,72.0,178.49,6.0,4.0,4.0,45.0,1.55,1.44,2.91,1.55,0.85,1.3,1.73,6.3704,3.8,1.16,4.0,4.0,2.0,2.0,0.0,2.0,2.0,659.0,16.2,2500.15,4873.15,13.3,0.14,24.06,575.0,23.0,619.0,6.44,1.64,0,0.0,0,0,0,0,0.0,0.0,0.0,0.0,0.0,0.0,0.0,0.0,0.0,0.0,0.0,0,0,0,0,0,0,0,0.0,0.0,0.0,0.0,0.0,0.0,0.0,0.0,0,0.0,0.0,72,178.49,6,4,4,45,1.55,1.44,2.91,1.55,0.85,1.3,1.73,6.3704,3.8,1.16,4.0,4,2,2,0,2,2,659,16.2,2500.15,4873.15,13.3,0.14,24.06,575.0,23.0,619,6.44,1.64,72,178.49,6,4,4,45,1.55,1.44,2.91,1.55,0.85,1.3,1.73,6.3704,3.8,1.16,4.0,4,2,2,0,2,2,659,16.2,2500.15,4873.15,13.3,0.14,24.06,575.0,23.0,619,6.44,1.64,1
623,623,MgO,g,-286.698,274.147,42.278,10.0,20.1522,2.5,9.0,4.5,77.5,1.05,1.045,1.2475,1.05,1.035,2.375,2.315,5.6724,5.645,2.4515,1.0,4.0,4.0,2.0,2.0,0.0,4.0,1026.0,5.6965,488.45,726.65,0.870715,0.97,4.588295,65.40495,78.01337,198.5,2.065,50.488,4,8.3056,1,14,5,19,0.9,0.63,1.565,0.9,0.35,2.13,2.01,5.3958,3.79,2.317,2.0,4,4,0,4,0,4,576,9.807,867.4,1273.0,1.73857,0.1,8.73141,123.9901,155.973,101,1.11,180.976,12,24.305,3,16,7,87,1.5,1.36,2.03,1.5,1.21,3.44,3.32,8.3703,7.54,3.61,2.0,6,6,2,4,0,6,1314,10.6,922.15,1363.15,1.74,1.02,8.954,127.4,156.0,249,2.62,140.976,8,15.9994,2,2,2,68,0.6,0.73,0.465,0.6,0.86,1.31,1.31,2.9745,3.75,1.293,0.0,2,2,2,0,0,2,738,0.793,54.75,90.15,0.00143,0.92,0.22259,3.4099,0.02674,148,1.51,-40.0,2
675,675,O3W,g,-397.938,388.072,67.749,24.5,57.95955,3.0,13.5,6.25,78.0,0.7875,0.8725,1.0325,0.7875,1.0925,3.005,2.9375,7.97375,6.755,3.075,1.445,6.0,5.5,2.0,3.0,1.0,5.0,1178.0,3.36975,961.85,1550.9,4.82607,0.7225,9.01694,208.557,43.5201,399.0,4.19,125.422,66,167.8406,4,10,3,36,0.75,0.57,2.27,0.75,0.47,1.74,1.53,1.5862,3.14,2.14,5.78,0,2,0,4,4,4,544,10.307,3628.4,5843.0,19.29857,0.79,35.17741,820.5901,173.973,600,6.28,62.216,74,183.84,6,16,7,87,1.35,1.3,2.735,1.35,1.21,3.44,3.32,8.3703,7.54,3.61,5.78,6,6,2,4,4,6,1314,11.1,3683.15,5933.15,19.3,0.92,35.4,824.0,174.0,849,8.9,140.976,8,15.9994,2,6,4,51,0.6,0.73,0.465,0.6,0.74,1.7,1.79,6.7841,4.4,1.47,0.0,6,4,2,0,0,2,770,0.793,54.75,90.15,0.00143,0.13,0.22259,3.4099,0.02674,249,2.62,78.76,4
705,705,Zr,g,-238.7112,217.523,22.317,40.0,91.224,5.0,4.0,4.0,44.0,1.55,1.45,2.825,1.55,0.86,1.33,1.7,3.4521,3.64,1.32,4.0,4.0,2.0,2.0,0.0,2.0,2.0,640.0,17.9,2125.15,4650.15,6.51,0.27,16.9,58.2,22.7,609.0,6.25,41.81,0,0.0,0,0,0,0,0.0,0.0,0.0,0.0,0.0,0.0,0.0,0.0,0.0,0.0,0.0,0,0,0,0,0,0,0,0.0,0.0,0.0,0.0,0.0,0.0,0.0,0.0,0,0.0,0.0,40,91.224,5,4,4,44,1.55,1.45,2.825,1.55,0.86,1.33,1.7,3.4521,3.64,1.32,4.0,4,2,2,0,2,2,640,17.9,2125.15,4650.15,6.51,0.27,16.9,58.2,22.7,609,6.25,41.81,40,91.224,5,4,4,44,1.55,1.45,2.825,1.55,0.86,1.33,1.7,3.4521,3.64,1.32,4.0,4,2,2,0,2,2,640,17.9,2125.15,4650.15,6.51,0.27,16.9,58.2,22.7,609,6.25,41.81,1